Index	trial_id	trial_type	trial_code	SM_velocity	OM_velocity	Condition_name	onset	duration	ITI_duration	StartTime	ChangeTime	Response	ResponseTime	Valid
1	trial_id	trial_type	trial_code	SM_velocity	OM_velocity	Condition_name	onset	duration	ITI_duration	5.405979	0	0	0	False
2	trial_id	trial_type	trial_code	SM_velocity	OM_velocity	Condition_name	onset	duration	ITI_duration	9.310931	0	4	9.699759	True

Index	trial_id	trial_type	trial_code	SM_velocity	OM_velocity	Condition_name	onset	duration	ITI_duration	StartTime	ChangeTime	Response	ResponseTime	Valid
1	trial_id	trial_type	trial_code	SM_velocity	OM_velocity	Condition_name	onset	duration	ITI_duration	3.232989	0	0	0	False
2	trial_id	trial_type	trial_code	SM_velocity	OM_velocity	Condition_name	onset	duration	ITI_duration	7.130463	0	0	0	False
3	trial_id	trial_type	trial_code	SM_velocity	OM_velocity	Condition_name	onset	duration	ITI_duration	13.64959	0	0	0	False
4	trial_id	trial_type	trial_code	SM_velocity	OM_velocity	Condition_name	onset	duration	ITI_duration	20.82574	0	0	0	False
5	trial_id	trial_type	trial_code	SM_velocity	OM_velocity	Condition_name	onset	duration	ITI_duration	25.61833	0	0	0	False
6	trial_id	trial_type	trial_code	SM_velocity	OM_velocity	Condition_name	onset	duration	ITI_duration	33.9177	0	0	0	False
7	trial_id	trial_type	trial_code	SM_velocity	OM_velocity	Condition_name	onset	duration	ITI_duration	38.70893	0	0	0	False
8	trial_id	trial_type	trial_code	SM_velocity	OM_velocity	Condition_name	onset	duration	ITI_duration	47.02296	0	0	0	False
9	trial_id	trial_type	trial_code	SM_velocity	OM_velocity	Condition_name	onset	duration	ITI_duration	52.0564	0	0	0	False
10	trial_id	trial_type	trial_code	SM_velocity	OM_velocity	Condition_name	onset	duration	ITI_duration	56.63325	0	0	0	False
11	trial_id	trial_type	trial_code	SM_velocity	OM_velocity	Condition_name	onset	duration	ITI_duration	60.92935	0	0	0	False
12	trial_id	trial_type	trial_code	SM_velocity	OM_velocity	Condition_name	onset	duration	ITI_duration	68.33781	0	0	0	False
13	trial_id	trial_type	trial_code	SM_velocity	OM_velocity	Condition_name	onset	duration	ITI_duration	71.99463	0	0	0	False
14	trial_id	trial_type	trial_code	SM_velocity	OM_velocity	Condition_name	onset	duration	ITI_duration	78.80173	0	0	0	False
15	trial_id	trial_type	trial_code	SM_velocity	OM_velocity	Condition_name	onset	duration	ITI_duration	82.88598	0	0	0	False
16	trial_id	trial_type	trial_code	SM_velocity	OM_velocity	Condition_name	onset	duration	ITI_duration	90.29417	0	0	0	False
17	trial_id	trial_type	trial_code	SM_velocity	OM_velocity	Condition_name	onset	duration	ITI_duration	97.05379	0	0	0	False
18	trial_id	trial_type	trial_code	SM_velocity	OM_velocity	Condition_name	onset	duration	ITI_duration	103.0541	0	0	0	False
19	trial_id	trial_type	trial_code	SM_velocity	OM_velocity	Condition_name	onset	duration	ITI_duration	109.2617	0	0	0	False
20	trial_id	trial_type	trial_code	SM_velocity	OM_velocity	Condition_name	onset	duration	ITI_duration	115.6941	0	0	0	False
21	trial_id	trial_type	trial_code	SM_velocity	OM_velocity	Condition_name	onset	duration	ITI_duration	119.3101	0	0	0	False
22	trial_id	trial_type	trial_code	SM_velocity	OM_velocity	Condition_name	onset	duration	ITI_duration	127.132	0	0	0	False
23	trial_id	trial_type	trial_code	SM_velocity	OM_velocity	Condition_name	onset	duration	ITI_duration	133.1509	0	0	0	False
24	trial_id	trial_type	trial_code	SM_velocity	OM_velocity	Condition_name	onset	duration	ITI_duration	137.2428	0	0	0	False
25	trial_id	trial_type	trial_code	SM_velocity	OM_velocity	Condition_name	onset	duration	ITI_duration	145.3472	0	0	0	False
26	trial_id	trial_type	trial_code	SM_velocity	OM_velocity	Condition_name	onset	duration	ITI_duration	149.675	0	0	0	False

Index	trial_id	trial_type	trial_code	SM_velocity	OM_velocity	Condition_name	onset	duration	ITI_duration	StartTime	ChangeTime	Response	ResponseTime	Valid
1	trial_id	trial_type	trial_code	SM_velocity	OM_velocity	Condition_name	onset	duration	ITI_duration	2.795213	0	0	0	False
2	trial_id	trial_type	trial_code	SM_velocity	OM_velocity	Condition_name	onset	duration	ITI_duration	6.761142	0	0	0	False
3	trial_id	trial_type	trial_code	SM_velocity	OM_velocity	Condition_name	onset	duration	ITI_duration	13.31061	0	0	0	False
4	trial_id	trial_type	trial_code	SM_velocity	OM_velocity	Condition_name	onset	duration	ITI_duration	20.5303	0	0	0	False
5	trial_id	trial_type	trial_code	SM_velocity	OM_velocity	Condition_name	onset	duration	ITI_duration	25.3717	0	0	0	False
6	trial_id	trial_type	trial_code	SM_velocity	OM_velocity	Condition_name	onset	duration	ITI_duration	33.71468	0	0	0	False
7	trial_id	trial_type	trial_code	SM_velocity	OM_velocity	Condition_name	onset	duration	ITI_duration	38.5742	0	0	0	False
8	trial_id	trial_type	trial_code	SM_velocity	OM_velocity	Condition_name	onset	duration	ITI_duration	46.90215	0	0	0	False
9	trial_id	trial_type	trial_code	SM_velocity	OM_velocity	Condition_name	onset	duration	ITI_duration	52.01462	0	0	0	False
10	trial_id	trial_type	trial_code	SM_velocity	OM_velocity	Condition_name	onset	duration	ITI_duration	56.71764	0	0	0	False
11	trial_id	trial_type	trial_code	SM_velocity	OM_velocity	Condition_name	onset	duration	ITI_duration	61.12207	0	0	0	False
12	trial_id	trial_type	trial_code	SM_velocity	OM_velocity	Condition_name	onset	duration	ITI_duration	68.58905	0	0	0	False
13	trial_id	trial_type	trial_code	SM_velocity	OM_velocity	Condition_name	onset	duration	ITI_duration	72.36422	0	0	0	False
14	trial_id	trial_type	trial_code	SM_velocity	OM_velocity	Condition_name	onset	duration	ITI_duration	79.19746	0	0	0	False
15	trial_id	trial_type	trial_code	SM_velocity	OM_velocity	Condition_name	onset	duration	ITI_duration	83.35667	0	0	0	False
16	trial_id	trial_type	trial_code	SM_velocity	OM_velocity	Condition_name	onset	duration	ITI_duration	90.82134	0	0	0	False
17	trial_id	trial_type	trial_code	SM_velocity	OM_velocity	Condition_name	onset	duration	ITI_duration	97.58584	0	0	0	False
18	trial_id	trial_type	trial_code	SM_velocity	OM_velocity	Condition_name	onset	duration	ITI_duration	103.654	0	0	0	False
19	trial_id	trial_type	trial_code	SM_velocity	OM_velocity	Condition_name	onset	duration	ITI_duration	109.9281	0	0	0	False
20	trial_id	trial_type	trial_code	SM_velocity	OM_velocity	Condition_name	onset	duration	ITI_duration	116.3804	0	0	0	False
21	trial_id	trial_type	trial_code	SM_velocity	OM_velocity	Condition_name	onset	duration	ITI_duration	120.0956	0	0	0	False
22	trial_id	trial_type	trial_code	SM_velocity	OM_velocity	Condition_name	onset	duration	ITI_duration	127.9157	0	0	0	False
23	trial_id	trial_type	trial_code	SM_velocity	OM_velocity	Condition_name	onset	duration	ITI_duration	133.9885	0	0	0	False
24	trial_id	trial_type	trial_code	SM_velocity	OM_velocity	Condition_name	onset	duration	ITI_duration	138.1603	0	0	0	False
25	trial_id	trial_type	trial_code	SM_velocity	OM_velocity	Condition_name	onset	duration	ITI_duration	146.2728	0	0	0	False
26	trial_id	trial_type	trial_code	SM_velocity	OM_velocity	Condition_name	onset	duration	ITI_duration	150.6528	0	0	0	False

Index	trial_id	trial_type	trial_code	SM_velocity	OM_velocity	Condition_name	onset	duration	ITI_duration	StartTime	ChangeTime	Response	ResponseTime	Valid
1	trial_id	trial_type	trial_code	SM_velocity	OM_velocity	Condition_name	onset	duration	ITI_duration	1.667019	0	0	0	False
2	trial_id	trial_type	trial_code	SM_velocity	OM_velocity	Condition_name	onset	duration	ITI_duration	5.588515	0	0	0	False
3	trial_id	trial_type	trial_code	SM_velocity	OM_velocity	Condition_name	onset	duration	ITI_duration	12.22594	0	0	0	False
4	trial_id	trial_type	trial_code	SM_velocity	OM_velocity	Condition_name	onset	duration	ITI_duration	19.45922	0	0	0	False
5	trial_id	trial_type	trial_code	SM_velocity	OM_velocity	Condition_name	onset	duration	ITI_duration	24.29605	0	0	0	False
6	trial_id	trial_type	trial_code	SM_velocity	OM_velocity	Condition_name	onset	duration	ITI_duration	32.61447	0	0	0	False
7	trial_id	trial_type	trial_code	SM_velocity	OM_velocity	Condition_name	onset	duration	ITI_duration	37.48413	0	0	0	False
8	trial_id	trial_type	trial_code	SM_velocity	OM_velocity	Condition_name	onset	duration	ITI_duration	45.89814	0	0	0	False
9	trial_id	trial_type	trial_code	SM_velocity	OM_velocity	Condition_name	onset	duration	ITI_duration	50.92571	0	0	0	False
10	trial_id	trial_type	trial_code	SM_velocity	OM_velocity	Condition_name	onset	duration	ITI_duration	55.59239	0	0	0	False
11	trial_id	trial_type	trial_code	SM_velocity	OM_velocity	Condition_name	onset	duration	ITI_duration	59.92744	0	0	0	False
12	trial_id	trial_type	trial_code	SM_velocity	OM_velocity	Condition_name	onset	duration	ITI_duration	67.31239	0	0	0	False

Index	trial_id	trial_type	trial_code	SM_velocity	OM_velocity	Condition_name	onset	duration	ITI_duration	StartTime	ChangeTime	Response	ResponseTime	Valid
1	trial_id	trial_type	trial_code	SM_velocity	OM_velocity	Condition_name	onset	duration	ITI_duration	0.183624	0	0	0	False
2	trial_id	trial_type	trial_code	SM_velocity	OM_velocity	Condition_name	onset	duration	ITI_duration	4.067843	0	0	0	False
3	trial_id	trial_type	trial_code	SM_velocity	OM_velocity	Condition_name	onset	duration	ITI_duration	10.58651	0	0	0	False
4	trial_id	trial_type	trial_code	SM_velocity	OM_velocity	Condition_name	onset	duration	ITI_duration	17.79057	0	0	0	False
5	trial_id	trial_type	trial_code	SM_velocity	OM_velocity	Condition_name	onset	duration	ITI_duration	22.63492	0	0	0	False
6	trial_id	trial_type	trial_code	SM_velocity	OM_velocity	Condition_name	onset	duration	ITI_duration	30.93456	0	0	0	False
7	trial_id	trial_type	trial_code	SM_velocity	OM_velocity	Condition_name	onset	duration	ITI_duration	35.74729	0	0	0	False
8	trial_id	trial_type	trial_code	SM_velocity	OM_velocity	Condition_name	onset	duration	ITI_duration	44.08319	0	0	0	False
9	trial_id	trial_type	trial_code	SM_velocity	OM_velocity	Condition_name	onset	duration	ITI_duration	49.09496	0	0	0	False
10	trial_id	trial_type	trial_code	SM_velocity	OM_velocity	Condition_name	onset	duration	ITI_duration	53.79291	0	0	0	False
11	trial_id	trial_type	trial_code	SM_velocity	OM_velocity	Condition_name	onset	duration	ITI_duration	58.10494	0	0	0	False
12	trial_id	trial_type	trial_code	SM_velocity	OM_velocity	Condition_name	onset	duration	ITI_duration	65.59612	0	0	0	False
13	trial_id	trial_type	trial_code	SM_velocity	OM_velocity	Condition_name	onset	duration	ITI_duration	69.30829	0	0	0	False
14	trial_id	trial_type	trial_code	SM_velocity	OM_velocity	Condition_name	onset	duration	ITI_duration	76.10832	0	0	0	False
15	trial_id	trial_type	trial_code	SM_velocity	OM_velocity	Condition_name	onset	duration	ITI_duration	80.18419	0	0	0	False
16	trial_id	trial_type	trial_code	SM_velocity	OM_velocity	Condition_name	onset	duration	ITI_duration	87.59634	0	0	0	False
17	trial_id	trial_type	trial_code	SM_velocity	OM_velocity	Condition_name	onset	duration	ITI_duration	94.32093	0	0	0	False

Index	trial_id	trial_type	trial_code	SM_velocity	OM_velocity	Condition_name	onset	duration	ITI_duration	StartTime	ChangeTime	Response	ResponseTime	Valid
1	trial_id	trial_type	trial_code	SM_velocity	OM_velocity	Condition_name	onset	duration	ITI_duration	5.597264	0	0	0	False
2	trial_id	trial_type	trial_code	SM_velocity	OM_velocity	Condition_name	onset	duration	ITI_duration	9.513638	0	0	0	False
3	trial_id	trial_type	trial_code	SM_velocity	OM_velocity	Condition_name	onset	duration	ITI_duration	16.0433	0	0	0	False
4	trial_id	trial_type	trial_code	SM_velocity	OM_velocity	Condition_name	onset	duration	ITI_duration	23.26331	0	0	0	False
5	trial_id	trial_type	trial_code	SM_velocity	OM_velocity	Condition_name	onset	duration	ITI_duration	28.06244	0	0	0	False
6	trial_id	trial_type	trial_code	SM_velocity	OM_velocity	Condition_name	onset	duration	ITI_duration	36.39034	0	0	0	False
7	trial_id	trial_type	trial_code	SM_velocity	OM_velocity	Condition_name	onset	duration	ITI_duration	41.20304	0	0	0	False
8	trial_id	trial_type	trial_code	SM_velocity	OM_velocity	Condition_name	onset	duration	ITI_duration	49.50143	0	0	0	False
9	trial_id	trial_type	trial_code	SM_velocity	OM_velocity	Condition_name	onset	duration	ITI_duration	54.47472	0	0	0	False
10	trial_id	trial_type	trial_code	SM_velocity	OM_velocity	Condition_name	onset	duration	ITI_duration	59.05217	0	0	0	False
11	trial_id	trial_type	trial_code	SM_velocity	OM_velocity	Condition_name	onset	duration	ITI_duration	63.32277	0	0	0	False

Index	trial_id	trial_type	trial_code	SM_velocity	OM_velocity	Condition_name	onset	duration	ITI_duration	StartTime	ChangeTime	Response	ResponseTime	Valid
1	trial_id	trial_type	trial_code	SM_velocity	OM_velocity	Condition_name	onset	duration	ITI_duration	2.637877	0	0	0	False
2	trial_id	trial_type	trial_code	SM_velocity	OM_velocity	Condition_name	onset	duration	ITI_duration	6.546035	0	0	0	False
3	trial_id	trial_type	trial_code	SM_velocity	OM_velocity	Condition_name	onset	duration	ITI_duration	13.00827	0	0	0	False
4	trial_id	trial_type	trial_code	SM_velocity	OM_velocity	Condition_name	onset	duration	ITI_duration	20.17552	0	0	0	False
5	trial_id	trial_type	trial_code	SM_velocity	OM_velocity	Condition_name	onset	duration	ITI_duration	24.96884	0	0	0	False
6	trial_id	trial_type	trial_code	SM_velocity	OM_velocity	Condition_name	onset	duration	ITI_duration	33.26828	0	0	0	False

Index	trial_id	trial_type	trial_code	SM_velocity	OM_velocity	Condition_name	onset	duration	ITI_duration	StartTime	ChangeTime	Response	ResponseTime	Valid
1	trial_id	trial_type	trial_code	SM_velocity	OM_velocity	Condition_name	onset	duration	ITI_duration	0.2124161	0	0	0	False
2	trial_id	trial_type	trial_code	SM_velocity	OM_velocity	Condition_name	onset	duration	ITI_duration	4.097731	0	0	0	False
3	trial_id	trial_type	trial_code	SM_velocity	OM_velocity	Condition_name	onset	duration	ITI_duration	10.54876	0	0	0	False
4	trial_id	trial_type	trial_code	SM_velocity	OM_velocity	Condition_name	onset	duration	ITI_duration	17.72033	0	0	0	False
5	trial_id	trial_type	trial_code	SM_velocity	OM_velocity	Condition_name	onset	duration	ITI_duration	22.50355	0	0	0	False

Index	trial_id	trial_type	trial_code	SM_velocity	OM_velocity	Condition_name	onset	duration	ITI_duration	StartTime	ChangeTime	Response	ResponseTime	Valid
1	trial_id	trial_type	trial_code	SM_velocity	OM_velocity	Condition_name	onset	duration	ITI_duration	1.964918	0	0	0	False
2	trial_id	trial_type	trial_code	SM_velocity	OM_velocity	Condition_name	onset	duration	ITI_duration	5.893331	0	0	0	False
3	trial_id	trial_type	trial_code	SM_velocity	OM_velocity	Condition_name	onset	duration	ITI_duration	12.34911	0	0	0	False
4	trial_id	trial_type	trial_code	SM_velocity	OM_velocity	Condition_name	onset	duration	ITI_duration	19.51133	0	0	0	False
5	trial_id	trial_type	trial_code	SM_velocity	OM_velocity	Condition_name	onset	duration	ITI_duration	24.27808	0	0	0	False
6	trial_id	trial_type	trial_code	SM_velocity	OM_velocity	Condition_name	onset	duration	ITI_duration	32.52379	0	0	0	False
7	trial_id	trial_type	trial_code	SM_velocity	OM_velocity	Condition_name	onset	duration	ITI_duration	37.28978	0	0	0	False
8	trial_id	trial_type	trial_code	SM_velocity	OM_velocity	Condition_name	onset	duration	ITI_duration	45.56175	0	0	0	False
9	trial_id	trial_type	trial_code	SM_velocity	OM_velocity	Condition_name	onset	duration	ITI_duration	50.51847	0	0	0	False
10	trial_id	trial_type	trial_code	SM_velocity	OM_velocity	Condition_name	onset	duration	ITI_duration	55.11092	0	0	0	False
11	trial_id	trial_type	trial_code	SM_velocity	OM_velocity	Condition_name	onset	duration	ITI_duration	59.42723	0	0	0	False
12	trial_id	trial_type	trial_code	SM_velocity	OM_velocity	Condition_name	onset	duration	ITI_duration	66.84332	0	0	0	False
13	trial_id	trial_type	trial_code	SM_velocity	OM_velocity	Condition_name	onset	duration	ITI_duration	70.58331	0	0	0	False
14	trial_id	trial_type	trial_code	SM_velocity	OM_velocity	Condition_name	onset	duration	ITI_duration	77.38409	0	0	0	False
15	trial_id	trial_type	trial_code	SM_velocity	OM_velocity	Condition_name	onset	duration	ITI_duration	81.46782	0	0	0	False

Index	trial_id	trial_type	trial_code	SM_velocity	OM_velocity	Condition_name	onset	duration	ITI_duration	StartTime	ChangeTime	Response	ResponseTime	Valid
1	trial_id	trial_type	trial_code	SM_velocity	OM_velocity	Condition_name	onset	duration	ITI_duration	0.200532	0	0	0	False
2	trial_id	trial_type	trial_code	SM_velocity	OM_velocity	Condition_name	onset	duration	ITI_duration	4.146041	0	0	0	False
3	trial_id	trial_type	trial_code	SM_velocity	OM_velocity	Condition_name	onset	duration	ITI_duration	10.61698	0	0	0	False
4	trial_id	trial_type	trial_code	SM_velocity	OM_velocity	Condition_name	onset	duration	ITI_duration	17.78058	0	0	0	False
5	trial_id	trial_type	trial_code	SM_velocity	OM_velocity	Condition_name	onset	duration	ITI_duration	22.54897	0	0	0	False
6	trial_id	trial_type	trial_code	SM_velocity	OM_velocity	Condition_name	onset	duration	ITI_duration	30.82137	0	0	0	False
7	trial_id	trial_type	trial_code	SM_velocity	OM_velocity	Condition_name	onset	duration	ITI_duration	35.57731	0	0	0	False
8	trial_id	trial_type	trial_code	SM_velocity	OM_velocity	Condition_name	onset	duration	ITI_duration	43.83408	0	0	0	False
9	trial_id	trial_type	trial_code	SM_velocity	OM_velocity	Condition_name	onset	duration	ITI_duration	48.81126	0	0	0	False
10	trial_id	trial_type	trial_code	SM_velocity	OM_velocity	Condition_name	onset	duration	ITI_duration	53.40082	0	0	0	False
11	trial_id	trial_type	trial_code	SM_velocity	OM_velocity	Condition_name	onset	duration	ITI_duration	57.67014	0	0	0	False
12	trial_id	trial_type	trial_code	SM_velocity	OM_velocity	Condition_name	onset	duration	ITI_duration	65.04298	0	0	0	False
13	trial_id	trial_type	trial_code	SM_velocity	OM_velocity	Condition_name	onset	duration	ITI_duration	68.70329	0	0	0	False

Index	trial_id	trial_type	trial_code	SM_velocity	OM_velocity	Condition_name	onset	duration	ITI_duration	StartTime	ChangeTime	Response	ResponseTime	Valid
1	trial_id	trial_type	trial_code	SM_velocity	OM_velocity	Condition_name	onset	duration	ITI_duration	1.805857	0	0	0	False
2	trial_id	trial_type	trial_code	SM_velocity	OM_velocity	Condition_name	onset	duration	ITI_duration	5.68649	0	0	0	False
3	trial_id	trial_type	trial_code	SM_velocity	OM_velocity	Condition_name	onset	duration	ITI_duration	12.1516	0	0	0	False
4	trial_id	trial_type	trial_code	SM_velocity	OM_velocity	Condition_name	onset	duration	ITI_duration	19.29995	0	0	0	False
5	trial_id	trial_type	trial_code	SM_velocity	OM_velocity	Condition_name	onset	duration	ITI_duration	24.1417	0	0	0	False
6	trial_id	trial_type	trial_code	SM_velocity	OM_velocity	Condition_name	onset	duration	ITI_duration	32.50614	0	0	0	False

Index	trial_id	trial_type	trial_code	SM_velocity	OM_velocity	Condition_name	onset	duration	ITI_duration	StartTime	ChangeTime	Response	ResponseTime	Valid
1	trial_id	trial_type	trial_code	SM_velocity	OM_velocity	Condition_name	onset	duration	ITI_duration	5.044219	0	0	0	False
2	trial_id	trial_type	trial_code	SM_velocity	OM_velocity	Condition_name	onset	duration	ITI_duration	8.996139	0	0	0	False
3	trial_id	trial_type	trial_code	SM_velocity	OM_velocity	Condition_name	onset	duration	ITI_duration	15.47943	0	0	0	False
4	trial_id	trial_type	trial_code	SM_velocity	OM_velocity	Condition_name	onset	duration	ITI_duration	22.69935	0	0	0	False
5	trial_id	trial_type	trial_code	SM_velocity	OM_velocity	Condition_name	onset	duration	ITI_duration	27.47725	0	0	0	False
6	trial_id	trial_type	trial_code	SM_velocity	OM_velocity	Condition_name	onset	duration	ITI_duration	35.74812	0	0	0	False
7	trial_id	trial_type	trial_code	SM_velocity	OM_velocity	Condition_name	onset	duration	ITI_duration	40.5319	0	0	0	False
8	trial_id	trial_type	trial_code	SM_velocity	OM_velocity	Condition_name	onset	duration	ITI_duration	48.79566	0	0	0	False

Index	trial_id	trial_type	trial_code	SM_velocity	OM_velocity	Condition_name	onset	duration	ITI_duration	StartTime	ChangeTime	Response	ResponseTime	Valid
1	trial_id	trial_type	trial_code	SM_velocity	OM_velocity	Condition_name	onset	duration	ITI_duration	2.274709	0	0	0	False
2	trial_id	trial_type	trial_code	SM_velocity	OM_velocity	Condition_name	onset	duration	ITI_duration	6.187251	0	0	0	False
3	trial_id	trial_type	trial_code	SM_velocity	OM_velocity	Condition_name	onset	duration	ITI_duration	12.72976	0	0	0	False
4	trial_id	trial_type	trial_code	SM_velocity	OM_velocity	Condition_name	onset	duration	ITI_duration	19.94707	0	0	0	False
5	trial_id	trial_type	trial_code	SM_velocity	OM_velocity	Condition_name	onset	duration	ITI_duration	24.73534	0	0	0	False
6	trial_id	trial_type	trial_code	SM_velocity	OM_velocity	Condition_name	onset	duration	ITI_duration	33.05427	0	0	0	False

Index	trial_id	trial_type	trial_code	SM_velocity	OM_velocity	Condition_name	onset	duration	ITI_duration	StartTime	ChangeTime	Response	ResponseTime	Valid
1	trial_id	trial_type	trial_code	SM_velocity	OM_velocity	Condition_name	onset	duration	ITI_duration	1.092554	0	0	0	False
2	trial_id	trial_type	trial_code	SM_velocity	OM_velocity	Condition_name	onset	duration	ITI_duration	5.037227	0	0	0	False
3	trial_id	trial_type	trial_code	SM_velocity	OM_velocity	Condition_name	onset	duration	ITI_duration	11.56019	0	0	0	False
4	trial_id	trial_type	trial_code	SM_velocity	OM_velocity	Condition_name	onset	duration	ITI_duration	18.77402	0	0	0	False
5	trial_id	trial_type	trial_code	SM_velocity	OM_velocity	Condition_name	onset	duration	ITI_duration	23.60346	0	0	0	False
6	trial_id	trial_type	trial_code	SM_velocity	OM_velocity	Condition_name	onset	duration	ITI_duration	31.90121	0	0	0	False
7	trial_id	trial_type	trial_code	SM_velocity	OM_velocity	Condition_name	onset	duration	ITI_duration	36.6667	0	0	0	False
8	trial_id	trial_type	trial_code	SM_velocity	OM_velocity	Condition_name	onset	duration	ITI_duration	44.93116	0	0	0	False

Index	trial_id	trial_type	trial_code	SM_velocity	OM_velocity	Condition_name	onset	duration	ITI_duration	StartTime	ChangeTime	Response	ResponseTime	Valid
1	trial_id	trial_type	trial_code	SM_velocity	OM_velocity	Condition_name	onset	duration	ITI_duration	51.68729	0	0	0	False
2	trial_id	trial_type	trial_code	SM_velocity	OM_velocity	Condition_name	onset	duration	ITI_duration	55.58404	0	0	0	False
3	trial_id	trial_type	trial_code	SM_velocity	OM_velocity	Condition_name	onset	duration	ITI_duration	62.11613	0	0	0	False
4	trial_id	trial_type	trial_code	SM_velocity	OM_velocity	Condition_name	onset	duration	ITI_duration	69.32298	0	0	0	False
5	trial_id	trial_type	trial_code	SM_velocity	OM_velocity	Condition_name	onset	duration	ITI_duration	74.12443	0	0	0	False
6	trial_id	trial_type	trial_code	SM_velocity	OM_velocity	Condition_name	onset	duration	ITI_duration	82.45286	0	0	0	False
7	trial_id	trial_type	trial_code	SM_velocity	OM_velocity	Condition_name	onset	duration	ITI_duration	87.27669	0	0	0	False
8	trial_id	trial_type	trial_code	SM_velocity	OM_velocity	Condition_name	onset	duration	ITI_duration	95.56952	0	0	0	False
9	trial_id	trial_type	trial_code	SM_velocity	OM_velocity	Condition_name	onset	duration	ITI_duration	100.5648	0	0	0	False

Index	trial_id	trial_type	trial_code	SM_velocity	OM_velocity	Condition_name	onset	duration	ITI_duration	StartTime	ChangeTime	Response	ResponseTime	Valid
1	trial_id	trial_type	trial_code	SM_velocity	OM_velocity	Condition_name	onset	duration	ITI_duration	0.209682	0	0	0	False
2	trial_id	trial_type	trial_code	SM_velocity	OM_velocity	Condition_name	onset	duration	ITI_duration	4.117306	0	0	0	False
3	trial_id	trial_type	trial_code	SM_velocity	OM_velocity	Condition_name	onset	duration	ITI_duration	10.64191	0	0	0	False
4	trial_id	trial_type	trial_code	SM_velocity	OM_velocity	Condition_name	onset	duration	ITI_duration	17.85814	0	0	0	False
5	trial_id	trial_type	trial_code	SM_velocity	OM_velocity	Condition_name	onset	duration	ITI_duration	22.65745	0	0	0	False

Index	trial_id	trial_type	trial_code	SM_velocity	OM_velocity	Condition_name	onset	duration	ITI_duration	StartTime	ChangeTime	Response	ResponseTime	Valid
1	trial_id	trial_type	trial_code	SM_velocity	OM_velocity	Condition_name	onset	duration	ITI_duration	3.265366	0	0	0	False
2	trial_id	trial_type	trial_code	SM_velocity	OM_velocity	Condition_name	onset	duration	ITI_duration	7.194654	0	0	0	False
3	trial_id	trial_type	trial_code	SM_velocity	OM_velocity	Condition_name	onset	duration	ITI_duration	13.73266	0	0	0	False
4	trial_id	trial_type	trial_code	SM_velocity	OM_velocity	Condition_name	onset	duration	ITI_duration	20.9214	0	0	0	False

Index	trial_id	trial_type	trial_code	SM_velocity	OM_velocity	Condition_name	onset	duration	ITI_duration	StartTime	ChangeTime	Response	ResponseTime	Valid
1	trial_id	trial_type	trial_code	SM_velocity	OM_velocity	Condition_name	onset	duration	ITI_duration	0.1792259	0	0	0	False
2	trial_id	trial_type	trial_code	SM_velocity	OM_velocity	Condition_name	onset	duration	ITI_duration	4.110626	0	0	0	False
3	trial_id	trial_type	trial_code	SM_velocity	OM_velocity	Condition_name	onset	duration	ITI_duration	10.62851	0	0	0	False
4	trial_id	trial_type	trial_code	SM_velocity	OM_velocity	Condition_name	onset	duration	ITI_duration	17.82243	0	0	0	False
5	trial_id	trial_type	trial_code	SM_velocity	OM_velocity	Condition_name	onset	duration	ITI_duration	22.5818	0	0	0	False
6	trial_id	trial_type	trial_code	SM_velocity	OM_velocity	Condition_name	onset	duration	ITI_duration	30.85984	0	0	0	False
7	trial_id	trial_type	trial_code	SM_velocity	OM_velocity	Condition_name	onset	duration	ITI_duration	35.60642	0	0	0	False
8	trial_id	trial_type	trial_code	SM_velocity	OM_velocity	Condition_name	onset	duration	ITI_duration	43.86206	0	0	0	False
9	trial_id	trial_type	trial_code	SM_velocity	OM_velocity	Condition_name	onset	duration	ITI_duration	48.81736	0	0	0	False
10	trial_id	trial_type	trial_code	SM_velocity	OM_velocity	Condition_name	onset	duration	ITI_duration	53.38653	0	0	0	False
11	trial_id	trial_type	trial_code	SM_velocity	OM_velocity	Condition_name	onset	duration	ITI_duration	57.63694	0	0	0	False
12	trial_id	trial_type	trial_code	SM_velocity	OM_velocity	Condition_name	onset	duration	ITI_duration	64.98727	0	0	0	False
13	trial_id	trial_type	trial_code	SM_velocity	OM_velocity	Condition_name	onset	duration	ITI_duration	68.66981	0	0	0	False
14	trial_id	trial_type	trial_code	SM_velocity	OM_velocity	Condition_name	onset	duration	ITI_duration	75.48881	0	0	0	False
15	trial_id	trial_type	trial_code	SM_velocity	OM_velocity	Condition_name	onset	duration	ITI_duration	79.61025	0	0	0	False
16	trial_id	trial_type	trial_code	SM_velocity	OM_velocity	Condition_name	onset	duration	ITI_duration	86.95452	0	0	0	False

Index	trial_id	trial_type	trial_code	SM_velocity	OM_velocity	Condition_name	onset	duration	ITI_duration	StartTime	ChangeTime	Response	ResponseTime	Valid
1	trial_id	trial_type	trial_code	SM_velocity	OM_velocity	Condition_name	onset	duration	ITI_duration	0.66131	0	0	0	False
2	trial_id	trial_type	trial_code	SM_velocity	OM_velocity	Condition_name	onset	duration	ITI_duration	4.565535	0	0	0	False
3	trial_id	trial_type	trial_code	SM_velocity	OM_velocity	Condition_name	onset	duration	ITI_duration	11.07602	0	0	0	False
4	trial_id	trial_type	trial_code	SM_velocity	OM_velocity	Condition_name	onset	duration	ITI_duration	18.2724	0	0	0	False

Index	trial_id	trial_type	trial_code	SM_velocity	OM_velocity	Condition_name	onset	duration	ITI_duration	StartTime	ChangeTime	Response	ResponseTime	Valid
1	trial_id	trial_type	trial_code	SM_velocity	OM_velocity	Condition_name	onset	duration	ITI_duration	1.730418	0	0	0	False
2	trial_id	trial_type	trial_code	SM_velocity	OM_velocity	Condition_name	onset	duration	ITI_duration	5.633324	0	0	0	False
3	trial_id	trial_type	trial_code	SM_velocity	OM_velocity	Condition_name	onset	duration	ITI_duration	12.11262	0	0	0	False

Index	trial_id	trial_type	trial_code	SM_velocity	OM_velocity	Condition_name	onset	duration	ITI_duration	StartTime	ChangeTime	Response	ResponseTime	Valid
1	trial_id	trial_type	trial_code	SM_velocity	OM_velocity	Condition_name	onset	duration	ITI_duration	1.897493	0	0	0	False
2	trial_id	trial_type	trial_code	SM_velocity	OM_velocity	Condition_name	onset	duration	ITI_duration	5.80088	0	0	0	False
3	trial_id	trial_type	trial_code	SM_velocity	OM_velocity	Condition_name	onset	duration	ITI_duration	12.31878	0	0	0	False
4	trial_id	trial_type	trial_code	SM_velocity	OM_velocity	Condition_name	onset	duration	ITI_duration	19.50446	0	0	0	False
5	trial_id	trial_type	trial_code	SM_velocity	OM_velocity	Condition_name	onset	duration	ITI_duration	24.33436	0	0	0	False
6	trial_id	trial_type	trial_code	SM_velocity	OM_velocity	Condition_name	onset	duration	ITI_duration	32.63731	0	0	0	False
7	trial_id	trial_type	trial_code	SM_velocity	OM_velocity	Condition_name	onset	duration	ITI_duration	37.46173	0	0	0	False

Index	trial_id	trial_type	trial_code	SM_velocity	OM_velocity	Condition_name	onset	duration	ITI_duration	StartTime	ChangeTime	Response	ResponseTime	Valid
1	trial_id	trial_type	trial_code	SM_velocity	OM_velocity	Condition_name	onset	duration	ITI_duration	1.667142	0	0	0	False
2	trial_id	trial_type	trial_code	SM_velocity	OM_velocity	Condition_name	onset	duration	ITI_duration	5.550902	0	0	0	False
3	trial_id	trial_type	trial_code	SM_velocity	OM_velocity	Condition_name	onset	duration	ITI_duration	12.08911	0	0	0	False
4	trial_id	trial_type	trial_code	SM_velocity	OM_velocity	Condition_name	onset	duration	ITI_duration	19.28884	0	0	0	False
5	trial_id	trial_type	trial_code	SM_velocity	OM_velocity	Condition_name	onset	duration	ITI_duration	24.11211	0	0	0	False
6	trial_id	trial_type	trial_code	SM_velocity	OM_velocity	Condition_name	onset	duration	ITI_duration	32.38588	0	0	0	False
7	trial_id	trial_type	trial_code	SM_velocity	OM_velocity	Condition_name	onset	duration	ITI_duration	37.17487	0	0	0	False
8	trial_id	trial_type	trial_code	SM_velocity	OM_velocity	Condition_name	onset	duration	ITI_duration	45.49784	0	0	0	False
9	trial_id	trial_type	trial_code	SM_velocity	OM_velocity	Condition_name	onset	duration	ITI_duration	50.53566	0	0	0	False
10	trial_id	trial_type	trial_code	SM_velocity	OM_velocity	Condition_name	onset	duration	ITI_duration	55.11896	0	0	0	False
11	trial_id	trial_type	trial_code	SM_velocity	OM_velocity	Condition_name	onset	duration	ITI_duration	59.39525	0	0	0	False
12	trial_id	trial_type	trial_code	SM_velocity	OM_velocity	Condition_name	onset	duration	ITI_duration	66.79179	0	0	0	False
13	trial_id	trial_type	trial_code	SM_velocity	OM_velocity	Condition_name	onset	duration	ITI_duration	70.46021	0	0	0	False
14	trial_id	trial_type	trial_code	SM_velocity	OM_velocity	Condition_name	onset	duration	ITI_duration	77.26079	0	0	0	False

Index	trial_id	trial_type	trial_code	SM_velocity	OM_velocity	Condition_name	onset	duration	ITI_duration	StartTime	ChangeTime	Response	ResponseTime	Valid
1	trial_id	trial_type	trial_code	SM_velocity	OM_velocity	Condition_name	onset	duration	ITI_duration	0.8772691	0	0	0	False
2	trial_id	trial_type	trial_code	SM_velocity	OM_velocity	Condition_name	onset	duration	ITI_duration	4.771817	0	0	0	False
3	trial_id	trial_type	trial_code	SM_velocity	OM_velocity	Condition_name	onset	duration	ITI_duration	11.21998	0	0	0	False
4	trial_id	trial_type	trial_code	SM_velocity	OM_velocity	Condition_name	onset	duration	ITI_duration	18.41874	0	0	0	False

Index	trial_id	trial_type	trial_code	SM_velocity	OM_velocity	Condition_name	onset	duration	ITI_duration	StartTime	ChangeTime	Response	ResponseTime	Valid
1	trial_id	trial_type	trial_code	SM_velocity	OM_velocity	Condition_name	onset	duration	ITI_duration	9.234684	0	0	0	False

Index	trial_id	trial_type	trial_code	SM_velocity	OM_velocity	Condition_name	onset	duration	ITI_duration	StartTime	ChangeTime	Response	ResponseTime	Valid
1	trial_id	trial_type	trial_code	SM_velocity	OM_velocity	Condition_name	onset	duration	ITI_duration	0,6650756	0	0	0	False
2	trial_id	trial_type	trial_code	SM_velocity	OM_velocity	Condition_name	onset	duration	ITI_duration	11,70467	0	1	32,62236	True

Index	trial_id	trial_type	trial_code	SM_velocity	OM_velocity	Condition_name	onset	duration	ITI_duration	StartTime	ChangeTime	Response	ResponseTime	Valid
1	trial_id	trial_type	trial_code	SM_velocity	OM_velocity	Condition_name	onset	duration	ITI_duration	1,080482	0	4	3,152594	True
2	trial_id	trial_type	trial_code	SM_velocity	OM_velocity	Condition_name	onset	duration	ITI_duration	4,145936	0	4	5,491862	True
3	trial_id	trial_type	trial_code	SM_velocity	OM_velocity	Condition_name	onset	duration	ITI_duration	7,197928	0	4	10,89362	True
4	trial_id	trial_type	trial_code	SM_velocity	OM_velocity	Condition_name	onset	duration	ITI_duration	11,09199	0	4	14,37329	True
5	trial_id	trial_type	trial_code	SM_velocity	OM_velocity	Condition_name	onset	duration	ITI_duration	14,50565	0	4	16,67595	True
6	trial_id	trial_type	trial_code	SM_velocity	OM_velocity	Condition_name	onset	duration	ITI_duration	17,57106	0	4	19,09701	True
7	trial_id	trial_type	trial_code	SM_velocity	OM_velocity	Condition_name	onset	duration	ITI_duration	20,63722	0	4	21,39932	True
8	trial_id	trial_type	trial_code	SM_velocity	OM_velocity	Condition_name	onset	duration	ITI_duration	23,70213	0	4	25,17652	True
9	trial_id	trial_type	trial_code	SM_velocity	OM_velocity	Condition_name	onset	duration	ITI_duration	26,76692	0	4	28,54003	True
10	trial_id	trial_type	trial_code	SM_velocity	OM_velocity	Condition_name	onset	duration	ITI_duration	29,83175	0	4	31,65557	True
11	trial_id	trial_type	trial_code	SM_velocity	OM_velocity	Condition_name	onset	duration	ITI_duration	32,88181	0	4	34,48909	True
12	trial_id	trial_type	trial_code	SM_velocity	OM_velocity	Condition_name	onset	duration	ITI_duration	35,94696	0	4	37,81961	True
13	trial_id	trial_type	trial_code	SM_velocity	OM_velocity	Condition_name	onset	duration	ITI_duration	39,00135	0	4	47,62636	True
14	trial_id	trial_type	trial_code	SM_velocity	OM_velocity	Condition_name	onset	duration	ITI_duration	47,7584	0	4	49,24964	True
15	trial_id	trial_type	trial_code	SM_velocity	OM_velocity	Condition_name	onset	duration	ITI_duration	50,82417	0	4	58,14602	True

Index	trial_id	trial_type	trial_code	SM_velocity	OM_velocity	Condition_name	onset	duration	ITI_duration	StartTime	ChangeTime	Response	ResponseTime	Valid
1	trial_id	trial_type	trial_code	SM_velocity	OM_velocity	Condition_name	onset	duration	ITI_duration	3,517372	0	1	9,49933	True
2	trial_id	trial_type	trial_code	SM_velocity	OM_velocity	Condition_name	onset	duration	ITI_duration	9,515902	0	1	14,04434	True
3	trial_id	trial_type	trial_code	SM_velocity	OM_velocity	Condition_name	onset	duration	ITI_duration	14,21058	0	1	17,98748	True
4	trial_id	trial_type	trial_code	SM_velocity	OM_velocity	Condition_name	onset	duration	ITI_duration	18,16972	0	1	24,87927	True
5	trial_id	trial_type	trial_code	SM_velocity	OM_velocity	Condition_name	onset	duration	ITI_duration	25,07846	0	1	29,36894	True
6	trial_id	trial_type	trial_code	SM_velocity	OM_velocity	Condition_name	onset	duration	ITI_duration	29,55117	0	1	37,12242	True
7	trial_id	trial_type	trial_code	SM_velocity	OM_velocity	Condition_name	onset	duration	ITI_duration	37,30437	0	1	41,43027	True
8	trial_id	trial_type	trial_code	SM_velocity	OM_velocity	Condition_name	onset	duration	ITI_duration	41,59541	0	1	45,38987	True
9	trial_id	trial_type	trial_code	SM_velocity	OM_velocity	Condition_name	onset	duration	ITI_duration	45,58826	0	1	48,13917	True
10	trial_id	trial_type	trial_code	SM_velocity	OM_velocity	Condition_name	onset	duration	ITI_duration	48,64117	0	1	51,30864	True
11	trial_id	trial_type	trial_code	SM_velocity	OM_velocity	Condition_name	onset	duration	ITI_duration	51,70632	0	1	53,5793	True
12	trial_id	trial_type	trial_code	SM_velocity	OM_velocity	Condition_name	onset	duration	ITI_duration	54,75554	0	1	55,84928	True
13	trial_id	trial_type	trial_code	SM_velocity	OM_velocity	Condition_name	onset	duration	ITI_duration	57,82077	0	1	59,59627	True
14	trial_id	trial_type	trial_code	SM_velocity	OM_velocity	Condition_name	onset	duration	ITI_duration	60,87194	0	1	63,37476	True
15	trial_id	trial_type	trial_code	SM_velocity	OM_velocity	Condition_name	onset	duration	ITI_duration	63,93781	0	1	67,73219	True
16	trial_id	trial_type	trial_code	SM_velocity	OM_velocity	Condition_name	onset	duration	ITI_duration	67,94722	0	1	72,40351	True
17	trial_id	trial_type	trial_code	SM_velocity	OM_velocity	Condition_name	onset	duration	ITI_duration	72,61886	0	1	74,19314	True
18	trial_id	trial_type	trial_code	SM_velocity	OM_velocity	Condition_name	onset	duration	ITI_duration	75,68443	0	1	81,86454	True
19	trial_id	trial_type	trial_code	SM_velocity	OM_velocity	Condition_name	onset	duration	ITI_duration	82,07993	0	1	83,7431	True
20	trial_id	trial_type	trial_code	SM_velocity	OM_velocity	Condition_name	onset	duration	ITI_duration	85,13441	0	1	89,4097	True
21	trial_id	trial_type	trial_code	SM_velocity	OM_velocity	Condition_name	onset	duration	ITI_duration	89,59152	0	1	91,6805	True
22	trial_id	trial_type	trial_code	SM_velocity	OM_velocity	Condition_name	onset	duration	ITI_duration	92,64132	0	1	93,45346	True
23	trial_id	trial_type	trial_code	SM_velocity	OM_velocity	Condition_name	onset	duration	ITI_duration	95,70628	0	1	98,47507	True
24	trial_id	trial_type	trial_code	SM_velocity	OM_velocity	Condition_name	onset	duration	ITI_duration	98,75816	0	1	101,3769	True
25	trial_id	trial_type	trial_code	SM_velocity	OM_velocity	Condition_name	onset	duration	ITI_duration	101,8237	0	1	103,5135	True
26	trial_id	trial_type	trial_code	SM_velocity	OM_velocity	Condition_name	onset	duration	ITI_duration	104,8885	0	1	105,4186	True
27	trial_id	trial_type	trial_code	SM_velocity	OM_velocity	Condition_name	onset	duration	ITI_duration	107,9539	0	1	109,3128	True
28	trial_id	trial_type	trial_code	SM_velocity	OM_velocity	Condition_name	onset	duration	ITI_duration	111,02	0	1	112,2451	True
29	trial_id	trial_type	trial_code	SM_velocity	OM_velocity	Condition_name	onset	duration	ITI_duration	114,0841	0	1	118,7724	True
30	trial_id	trial_type	trial_code	SM_velocity	OM_velocity	Condition_name	onset	duration	ITI_duration	119,0049	0	1	124,6875	True
31	trial_id	trial_type	trial_code	SM_velocity	OM_velocity	Condition_name	onset	duration	ITI_duration	124,9195	0	1	128,3553	True
32	trial_id	trial_type	trial_code	SM_velocity	OM_velocity	Condition_name	onset	duration	ITI_duration	128,5708	0	1	132,2825	True
33	trial_id	trial_type	trial_code	SM_velocity	OM_velocity	Condition_name	onset	duration	ITI_duration	132,4812	0	1	144,5254	True
34	trial_id	trial_type	trial_code	SM_velocity	OM_velocity	Condition_name	onset	duration	ITI_duration	144,6912	0	1	148,0398	True
35	trial_id	trial_type	trial_code	SM_velocity	OM_velocity	Condition_name	onset	duration	ITI_duration	148,222	0	1	153,9707	True
36	trial_id	trial_type	trial_code	SM_velocity	OM_velocity	Condition_name	onset	duration	ITI_duration	154,1862	0	1	156,6568	True
37	trial_id	trial_type	trial_code	SM_velocity	OM_velocity	Condition_name	onset	duration	ITI_duration	157,2361	0	1	158,86	True
38	trial_id	trial_type	trial_code	SM_velocity	OM_velocity	Condition_name	onset	duration	ITI_duration	160,3015	0	1	161,0643	True
39	trial_id	trial_type	trial_code	SM_velocity	OM_velocity	Condition_name	onset	duration	ITI_duration	163,3678	0	1	164,2626	True
40	trial_id	trial_type	trial_code	SM_velocity	OM_velocity	Condition_name	onset	duration	ITI_duration	166,4326	0	1	167,2113	True
41	trial_id	trial_type	trial_code	SM_velocity	OM_velocity	Condition_name	onset	duration	ITI_duration	169,4978	0	1	170,2103	True
42	trial_id	trial_type	trial_code	SM_velocity	OM_velocity	Condition_name	onset	duration	ITI_duration	172,5631	0	1	173,2096	True
43	trial_id	trial_type	trial_code	SM_velocity	OM_velocity	Condition_name	onset	duration	ITI_duration	175,6285	0	1	177,3517	True
44	trial_id	trial_type	trial_code	SM_velocity	OM_velocity	Condition_name	onset	duration	ITI_duration	178,6936	0	1	179,357	True
45	trial_id	trial_type	trial_code	SM_velocity	OM_velocity	Condition_name	onset	duration	ITI_duration	181,7584	0	1	182,3559	True
46	trial_id	trial_type	trial_code	SM_velocity	OM_velocity	Condition_name	onset	duration	ITI_duration	184,8078	0	1	186,2996	True
47	trial_id	trial_type	trial_code	SM_velocity	OM_velocity	Condition_name	onset	duration	ITI_duration	187,8733	0	1	189,6954	True
48	trial_id	trial_type	trial_code	SM_velocity	OM_velocity	Condition_name	onset	duration	ITI_duration	190,9379	0	1	194,4004	True
49	trial_id	trial_type	trial_code	SM_velocity	OM_velocity	Condition_name	onset	duration	ITI_duration	194,5992	0	1	198,9562	True
50	trial_id	trial_type	trial_code	SM_velocity	OM_velocity	Condition_name	onset	duration	ITI_duration	199,1393	0	1	202,5909	True
51	trial_id	trial_type	trial_code	SM_velocity	OM_velocity	Condition_name	onset	duration	ITI_duration	202,757	0	1	206,3698	True
52	trial_id	trial_type	trial_code	SM_velocity	OM_velocity	Condition_name	onset	duration	ITI_duration	206,5518	0	1	208,8711	True

Index	trial_id	trial_type	trial_code	SM_velocity	OM_velocity	Condition_name	onset	duration	ITI_duration	StartTime	ChangeTime	Response	ResponseTime	Valid
1	trial_id	trial_type	trial_code	SM_velocity	OM_velocity	Condition_name	onset	duration	ITI_duration	0,4518035	0	1	5,333	True
2	trial_id	trial_type	trial_code	SM_velocity	OM_velocity	Condition_name	onset	duration	ITI_duration	5,548718	0	1	9,640854	True
3	trial_id	trial_type	trial_code	SM_velocity	OM_velocity	Condition_name	onset	duration	ITI_duration	9,823365	0	1	13,93121	True
4	trial_id	trial_type	trial_code	SM_velocity	OM_velocity	Condition_name	onset	duration	ITI_duration	14,09678	0	0	0	False

Index	trial_id	trial_type	trial_code	SM_velocity	OM_velocity	Condition_name	onset	duration	ITI_duration	StartTime	ChangeTime	Response	ResponseTime	Valid
1	trial_id	trial_type	trial_code	SM_velocity	OM_velocity	Condition_name	onset	duration	ITI_duration	4,087009	0	1	5,695863	True
2	trial_id	trial_type	trial_code	SM_velocity	OM_velocity	Condition_name	onset	duration	ITI_duration	7,137448	0	1	9,325316	True
3	trial_id	trial_type	trial_code	SM_velocity	OM_velocity	Condition_name	onset	duration	ITI_duration	10,18678	0	1	13,31826	True
4	trial_id	trial_type	trial_code	SM_velocity	OM_velocity	Condition_name	onset	duration	ITI_duration	13,55001	0	1	18,15535	True

Index	trial_id	trial_type	trial_code	SM_velocity	OM_velocity	Condition_name	onset	duration	ITI_duration	StartTime	ChangeTime	Response	ResponseTime	Valid
1	trial_id	trial_type	trial_code	SM_velocity	OM_velocity	Condition_name	onset	duration	ITI_duration	2,291953	0	1	8,038836	True
2	trial_id	trial_type	trial_code	SM_velocity	OM_velocity	Condition_name	onset	duration	ITI_duration	8,25389	0	1	11,71637	True
3	trial_id	trial_type	trial_code	SM_velocity	OM_velocity	Condition_name	onset	duration	ITI_duration	11,89856	0	1	15,26177	True
4	trial_id	trial_type	trial_code	SM_velocity	OM_velocity	Condition_name	onset	duration	ITI_duration	15,49407	0	1	19,00566	True
5	trial_id	trial_type	trial_code	SM_velocity	OM_velocity	Condition_name	onset	duration	ITI_duration	19,23759	0	1	28,366	True
6	trial_id	trial_type	trial_code	SM_velocity	OM_velocity	Condition_name	onset	duration	ITI_duration	29,37666	0	1	29,74286	True
7	trial_id	trial_type	trial_code	SM_velocity	OM_velocity	Condition_name	onset	duration	ITI_duration	32,42666	0	1	40,44579	True
8	trial_id	trial_type	trial_code	SM_velocity	OM_velocity	Condition_name	onset	duration	ITI_duration	40,66089	0	1	44,7199	True

Index	trial_id	trial_type	trial_code	SM_velocity	OM_velocity	Condition_name	onset	duration	ITI_duration	StartTime	ChangeTime	Response	ResponseTime	Valid
1	trial_id	trial_type	trial_code	SM_velocity	OM_velocity	Condition_name	onset	duration	ITI_duration	0,8862477	0	0	0	False

Index	trial_id	trial_type	trial_code	SM_velocity	OM_velocity	Condition_name	onset	duration	ITI_duration	StartTime	ChangeTime	Response	ResponseTime	Valid
1	trial_id	trial_type	trial_code	SM_velocity	OM_velocity	Condition_name	onset	duration	ITI_duration	1,36976	0	1	3,328441	True
2	trial_id	trial_type	trial_code	SM_velocity	OM_velocity	Condition_name	onset	duration	ITI_duration	4,421842	0	1	5,018243	True
3	trial_id	trial_type	trial_code	SM_velocity	OM_velocity	Condition_name	onset	duration	ITI_duration	7,486675	0	1	10,86753	True
4	trial_id	trial_type	trial_code	SM_velocity	OM_velocity	Condition_name	onset	duration	ITI_duration	11,08289	0	1	14,38517	True
5	trial_id	trial_type	trial_code	SM_velocity	OM_velocity	Condition_name	onset	duration	ITI_duration	14,6171	0	1	18,12967	True
6	trial_id	trial_type	trial_code	SM_velocity	OM_velocity	Condition_name	onset	duration	ITI_duration	18,34504	0	1	21,79047	True

Index	trial_id	trial_type	trial_code	SM_velocity	OM_velocity	Condition_name	onset	duration	ITI_duration	StartTime	ChangeTime	Response	ResponseTime	Valid
1	trial_id	trial_type	trial_code	SM_velocity	OM_velocity	Condition_name	onset	duration	ITI_duration	0,1455563	0	4	2,15153	True
2	trial_id	trial_type	trial_code	SM_velocity	OM_velocity	Condition_name	onset	duration	ITI_duration	3,211324	0	4	4,636058	True

Index	trial_id	trial_type	trial_code	SM_velocity	OM_velocity	Condition_name	onset	duration	ITI_duration	StartTime	ChangeTime	Response	ResponseTime	Valid
1	trial_id	trial_type	trial_code	SM_velocity	OM_velocity	Condition_name	onset	duration	ITI_duration	9.607372	0	0	0	False
2	trial_id	trial_type	trial_code	SM_velocity	OM_velocity	Condition_name	onset	duration	ITI_duration	13.52174	0	0	0	False
3	trial_id	trial_type	trial_code	SM_velocity	OM_velocity	Condition_name	onset	duration	ITI_duration	20.03395	0	0	0	False

